{
  "resourceType": "Bundle",
  "id": "am-scenario7-bundle",
  "entry": [
    {
      "fullUrl": "http://hl7.org/fhir/uv/cpg/GuidanceResponse/am-scenario7-gr",
      "resource": {
        "resourceType": "GuidanceResponse",
        "id": "am-scenario7-gr",
        "contained": [
          {
            "resourceType": "Parameters",
            "id": "output",
            "parameter": [
              {
                "name": "Inclusion Criteria",
                "valueBoolean": true
              },
              {
                "name": "Is Recommendation Applicable",
                "valueBoolean": false
              }
            ]
          }
        ],
        "moduleCanonical": "http://hl7.org/fhir/uv/cpg/Library/administermedication-library",
        "status": "success",
        "subject": {
          "reference": "Patient/am-scenario7-patient"
        },
        "outputParameters": {
          "reference": "#output"
        }
      }
    },
    {
      "fullUrl": "http://hl7.org/fhir/uv/cpg/MedicationAdministration/am-scenario7",
      "resource": {
        "resourceType": "MedicationAdministration",
        "id": "am-scenario7",
        "effectivePeriod": {
          "start": "2015-01-15T22:03:00+01:00",
          "end": "2015-01-16T02:03:00+01:00"
        },
        "dosage": {
          "text": "apply one patch three times per week",
          "dose": {
            "value": 1,
            "code": "PATCH",
            "system": "http://terminology.hl7.org/CodeSystem/v3-orderableDrugForm",
            "unit": "patch"
          }
        },
        "status": "not-done",
        "medicationCodeableConcept": {
          "coding": [
            {
              "code": "333919005",
              "system": "http://snomed.info/sct",
              "display": "Fentanyl 25micrograms/hour patch (product)"
            }
          ]
        },
        "subject": {
          "reference": "Patient/am-scenario7-patient"
        },
        "request": {
          "reference": "MedicationRequest/am-scenario7-mr"
        }
      }
    },
    {
      "fullUrl": "http://hl7.org/fhir/uv/cpg/MedicationRequest/am-scenario7-mr",
      "resource": {
        "resourceType": "MedicationRequest",
        "id": "am-scenario7-mr",
        "dosageInstruction": [
          {
            "timing": {
              "repeat": {
                "frequency": 3,
                "period": 1,
                "periodUnit": "wk"
              }
            },
            "doseAndRate": [
              {
                "type": {
                  "coding": [
                    {
                      "code": "ordered",
                      "system": "http://terminology.hl7.org/CodeSystem/dose-rate-type",
                      "display": "Ordered"
                    }
                  ]
                },
                "doseQuantity": {
                  "value": 1,
                  "code": "PATCH",
                  "system": "http://terminology.hl7.org/CodeSystem/v3-orderableDrugForm",
                  "unit": "patch"
                }
              }
            ],
            "sequence": 1,
            "text": "apply one patch three times per week"
          }
        ],
        "dispenseRequest": {
          "validityPeriod": {
            "start": "2015-01-15",
            "end": "2016-01-15"
          },
          "quantity": {
            "value": 6,
            "code": "PATCH",
            "system": "http://terminology.hl7.org/CodeSystem/v3-orderableDrugForm",
            "unit": "patch"
          },
          "expectedSupplyDuration": {
            "value": 14,
            "code": "d",
            "system": "http://unitsofmeasure.org",
            "unit": "days"
          }
        },
        "status": "active",
        "intent": "order",
        "priority": "routine",
        "medicationCodeableConcept": {
          "coding": [
            {
              "code": "333919005",
              "system": "http://snomed.info/sct",
              "display": "Fentanyl 25micrograms/hour patch (product)"
            }
          ]
        },
        "subject": {
          "reference": "Patient/am-scenario7-patient"
        }
      }
    },
    {
      "fullUrl": "http://hl7.org/fhir/uv/cpg/Patient/am-scenario7-patient",
      "resource": {
        "resourceType": "Patient",
        "id": "am-scenario7-patient",
        "name": [
          {
            "given": [
              "Example"
            ],
            "use": "usual",
            "text": "Example Patient",
            "family": "Patient"
          }
        ],
        "active": true,
        "gender": "female",
        "birthDate": "1990-10-01",
        "deceasedBoolean": false
      }
    },
    {
      "fullUrl": "http://hl7.org/fhir/uv/cpg/Task/request-am-scenario7",
      "resource": {
        "resourceType": "Task",
        "id": "request-am-scenario7",
        "input": [
          {
            "type": {
              "coding": [
                {
                  "code": "administer-medication",
                  "system": "http://hl7.org/fhir/uv/cpg/CodeSystem/cpg-activity-type-cs",
                  "display": "Administer a medication"
                }
              ]
            },
            "valueReference": {
              "reference": "MedicationRequest/am-scenario7-mr"
            }
          }
        ],
        "instantiatesCanonical": "http://hl7.org/fhir/uv/cpg/ActivityDefinition/activity-example-administermedication-ad",
        "status": "in-progress",
        "intent": "order",
        "code": {
          "coding": [
            {
              "code": "administer-medication",
              "system": "http://hl7.org/fhir/uv/cpg/CodeSystem/cpg-activity-type-cs",
              "display": "Administer a medication"
            }
          ]
        },
        "for": {
          "reference": "Patient/am-scenario7-patient"
        }
      }
    }
  ],
  "type": "collection"
}
