{
  "resourceType": "GuidanceResponse",
  "id": "am-scenario7",
  "contained": [
    {
      "resourceType": "Parameters",
      "id": "output",
      "parameter": [
        {
          "name": "Inclusion Criteria",
          "valueBoolean": true
        },
        {
          "name": "Is Recommendation Applicable",
          "valueBoolean": false
        }
      ]
    }
  ],
  "moduleCanonical": "http://hl7.org/fhir/uv/cpg/Library/AdministerMedication",
  "status": "success",
  "subject": {
    "reference": "Patient/am-scenario7"
  },
  "outputParameters": {
    "reference": "#output"
  }
}
